<?xml version="1.0" encoding="UTF-8"?>
<Bundle xmlns="http://hl7.org/fhir">
    <id value="f862ec24-e05a-42d1-aea5-d0a9c092e6ae"/>
    <meta>
        <lastUpdated value="2019-04-02T19:30:00+00:00"/>
        <profile value="https://fhir.nhs.uk/STU3/StructureDefinition/ITK-Message-Bundle-1"/>
    </meta>
    <identifier>
        <system value="https://example.local.pathology.identifier/PathologyMessage"/>
        <value value="f36927ef-7703-45ed-b0e5-6ec6723cf0f6"/>
    </identifier>
    <type value="message"/>
    <entry>
        <fullUrl value="urn:uuid:a4409d7c-b613-477c-b623-87e60406c2f0"/>
        <resource>
            <MessageHeader>
                <id value="a4409d7c-b613-477c-b623-87e60406c2f0"/>
                <meta>
                    <profile value="https://fhir.nhs.uk/STU3/StructureDefinition/ITK-MessageHeader-2"/>
                </meta>
                <extension url="https://fhir.nhs.uk/STU3/StructureDefinition/Extension-ITK-MessageHandling-2">
                    <!--The value of this handling specification is dependant on the response pattern.-->
                    <extension url="BusAckRequested">
                        <valueBoolean value="true"/>
                    </extension>
                    <extension url="InfAckRequested">
                        <valueBoolean value="true"/>
                    </extension>
                    <extension url="RecipientType">
                        <valueCoding>
                            <system value="https://fhir.nhs.uk/STU3/CodeSystem/ITK-RecipientType-1"/>
                            <code value="FA"/>
                            <display value="For Action"/>
                        </valueCoding>
                    </extension>
                </extension>
                <extension url="SenderReference">
                    <valueString value="None"/>
                </extension>
                <extension url="LocalExtension">
                    <valueString value="None"/>
                </extension>
                <event>
                    <system value="https://fhir.nhs.uk/STU3/CodeSystem/ITK-MessageEvent-2"/>
                    <code value="ITK012M"/>
                    <display value="ITK National Pathology"/>
                </event>
                <receiver>
                    <reference value="urn:uuid:bf7a76d3-5b44-4194-a9e0-d1cc1ea5e50e"/>
                </receiver>
                <sender>
                    <reference value="urn:uuid:d6407de7-0e86-45eb-93cb-035094aaa49e"/>
                </sender>
                <timestamp value="2019-04-02T09:10:16+00:00"/>
                <source>
                    <endpoint value="NOROT003"/>
                </source>
                <focus>
                    <reference value="urn:uuid:efae5859-28df-4e7d-be91-6df56d8215e4"/>
                </focus>
            </MessageHeader>
        </resource>
    </entry>
    <!--Provider from result-->
    <entry>
        <fullUrl value="urn:uuid:d6407de7-0e86-45eb-93cb-035094aaa49e"/>
        <resource>
            <Organization>
                <id value="d6407de7-0e86-45eb-93cb-035094aaa49e"/>
                <meta>
                    <profile value="https://fhir.hl7.org.uk/STU3/StructureDefinition/CareConnect-Organization-1"/>
                </meta>
                <identifier>
                    <system value="https://fhir.nhs.uk/Id/ods-organization-code"/>
                    <value value="RGD12"/>
                </identifier>
                <name value="Midtown District Hospital"/>
                <address>
                    <line value="BECKETT STREET"/>
                    <city value="LEEDS"/>
                    <district value="WEST YORKSHIRE"/>
                    <postalCode value="LS9 7TF"/>
                </address>
            </Organization>
        </resource>
        <!--Requesting Org-->
    </entry>
    <entry>
        <fullUrl value="urn:uuid:bf7a76d3-5b44-4194-a9e0-d1cc1ea5e50e"/>
        <resource>
            <Organization>
                <id value="bf7a76d3-5b44-4194-a9e0-d1cc1ea5e50e"/>
                <meta>
                    <profile value="https://fhir.hl7.org.uk/STU3/StructureDefinition/CareConnect-Organization-1"/>
                </meta>
                <identifier>
                    <system value="https://fhir.nhs.uk/Id/ods-organization-code"/>
                    <value value="D82015"/>
                </identifier>
                <name value="Manor GP Practice"/>
                <address>
                    <line value="30/32 BRIDGE STREET"/>
                    <city value="DOWNHAM MARKET"/>
                    <district value="NORFOLK"/>
                    <postalCode value="PE38 9DH"/>
                </address>
            </Organization>
        </resource>
    </entry>
    <!--Requesting Practitioner-->
    <entry>
        <fullUrl value="urn:uuid:f25e9d63-6a4e-4de6-b9dc-c912fda62b01"/>
        <resource>
            <Practitioner>
                <id value="f25e9d63-6a4e-4de6-b9dc-c912fda62b01"/>
                <meta>
                    <profile value="https://fhir.hl7.org.uk/STU3/StructureDefinition/CareConnect-Practitioner-1"/>
                </meta>
                <identifier>
                    <system value="https://fhir.nhs.uk/Id/sds-user-id"/>
                    <value value="G6040649"/>
                </identifier>
                <name>
                    <family value="GREEN"/>
                    <given value="Jane"/>
                </name>
            </Practitioner>
        </resource>
    </entry>
    <entry>
        <fullUrl value="urn:uuid:8d6c2cd5-0eec-496a-88d0-3785a135df09"/>
        <resource>
            <Patient>
                <id value="8d6c2cd5-0eec-496a-88d0-3785a135df09"/>
                <meta>
                    <profile value="https://fhir.hl7.org.uk/STU3/StructureDefinition/CareConnect-Patient-1"/>
                </meta>
                <identifier>
                    <extension url="https://fhir.hl7.org.uk/STU3/StructureDefinition/Extension-CareConnect-NHSNumberVerificationStatus-1">
                        <valueCodeableConcept>
                            <coding>
                                <system value="https://fhir.hl7.org.uk/STU3/CodeSystem/CareConnect-NHSNumberVerificationStatus-1"/>
                                <code value="01"/>
                                <display value="Number present and verified"/>
                            </coding>
                        </valueCodeableConcept>
                    </extension>
                    <system value="https://fhir.nhs.uk/Id/nhs-number"/>
                    <value value="9432003812"/>
                </identifier>
                <name>
                    <use value="official"/>
                    <family value="STANNER"/>
                    <given value="Lisa"/>
                </name>
                <gender value="female"/>
                <birthDate value="1920-12-29"/>
            </Patient>
        </resource>
    </entry>
    <entry>
        <fullUrl value="urn:uuid:d9df1431-22ac-462a-946a-f195f6c639af"/>
        <resource>
            <ProcedureRequest>
                <id value="d9df1431-22ac-462a-946a-f195f6c639af"/>
                <meta>
                    <profile value="https://fhir.hl7.org.uk/STU3/StructureDefinition/CareConnect-ProcedureRequest-1"/>
                </meta>
                <identifier>
                    <system value="https://example.local.pathology.identifier/ProcedureReport"/>
                    <value value="7e9bbd01-4e52-420d-b05b-48bc671d6708"/>
                </identifier>
                <status value="active"/>
                <intent value="order"/>
                <code>
                    <coding>
                        <system value="http://snomed.info/sct"/>
                        <code value="26604007"/>
                        <display value="FBC - Full blood count"/>
                    </coding>
                </code>
                <subject>
                    <reference value="urn:uuid:8d6c2cd5-0eec-496a-88d0-3785a135df09"/>
                    <display value="STANNER, Lisa"/>
                </subject>
                <requester>
                    <agent>
                        <reference value="urn:uuid:f25e9d63-6a4e-4de6-b9dc-c912fda62b01"/>
                        <display value="Manor GP Practice"/>
                    </agent>
                </requester>
                <performer>
                    <reference value="urn:uuid:d6407de7-0e86-45eb-93cb-035094aaa49e"/>
                    <display value="Midtown District Hospital"/>
                </performer>
                <note>
                    <text value="Monitoring Hypertension"/>
                </note>
            </ProcedureRequest>
        </resource>
    </entry>
    <entry>
        <fullUrl value="urn:uuid:efae5859-28df-4e7d-be91-6df56d8215e4"/>
        <resource>
            <DiagnosticReport xmlns="http://hl7.org/fhir">
                <id value="efae5859-28df-4e7d-be91-6df56d8215e4"/>
                <meta>
                    <profile value="https://fhir.hl7.org.uk/STU3/StructureDefinition/CareConnect-DiagnosticReport-1"/>
                </meta>
                <!--Test Request Summary-->
                <basedOn>
                    <reference value="urn:uuid:d9df1431-22ac-462a-946a-f195f6c639af"/>
                </basedOn>
                <status value="final"/>
                <code>
                    <coding>
                        <system value="http://snomed.info/sct"/>
                        <code value="721981007"/>
                        <display value="Diagnostic studies report"/>
                    </coding>
                </code>
                <subject>
                    <reference value="urn:uuid:8d6c2cd5-0eec-496a-88d0-3785a135df09"/>
                    <display value="STANNER, Lisa"/>
                </subject>
                <issued value="2019-04-03T12:00:00+00:00"/>
                <performer>
                    <actor>
                        <reference value="urn:uuid:d6407de7-0e86-45eb-93cb-035094aaa49e"/>
                        <display value="Midtown District Hospital"/>
                    </actor>
                </performer>
                <specimen>
                    <reference value="urn:uuid:756a8361-79ce-4561-afcb-a91fe19df123"/>
                </specimen>
                <result>
                    <reference value="urn:uuid:dacb177a-9501-4dcc-8b22-b941791ae0db"/>
                </result>
            </DiagnosticReport>
        </resource>
    </entry>
    <entry>
        <fullUrl value="urn:uuid:756a8361-79ce-4561-afcb-a91fe19df123"/>
        <resource>
            <Specimen>
                <id value="756a8361-79ce-4561-afcb-a91fe19df123"/>
                <meta>
                    <profile value="https://fhir.hl7.org.uk/STU3/StructureDefinition/CareConnect-Specimen-1"/>
                </meta>
                <identifier>
                    <system value="https://example.local.pathology.identifier/Specimen"/>
                    <value value="1b663fc5-9dec-49c0-9eed-18a7cfa5a6b2"/>
                </identifier>
                <status value="available"/>
                <type>
                    <coding>
                        <system value="http://snomed.info/sct"/>
                        <code value="53130003"/>
                        <display value="Venous blood (substance)"/>
                    </coding>
                </type>
                <subject>
                    <reference value="urn:uuid:8d6c2cd5-0eec-496a-88d0-3785a135df09"/>
                    <display value="STANNER, Lisa"/>
                </subject>
                <receivedTime value="2017-11-01T15:00:00+00:00"/>
                <collection>
                    <collectedDateTime value="2019-04-01T11:00:00+00:00"/>
                </collection>
            </Specimen>
        </resource>
    </entry>
<!--Group Test (Battery 1)-->
<entry>
    <fullUrl value="urn:uuid:dacb177a-9501-4dcc-8b22-b941791ae0db"/>
        <resource>
            <Observation>
                <id value="dacb177a-9501-4dcc-8b22-b941791ae0db"/>
                <meta>
                    <profile value="https://fhir.hl7.org.uk/STU3/StructureDefinition/CareConnect-Observation-1"/>
                </meta>
                <identifier>
                    <system value="https://example.local.pathology.identifier/Observation"/>
                    <value value="2af46949-4938-4c57-bad4-c4363e1965d5"/>
                </identifier>
                <status value="final"/>
                <!--Name of Group Test (Profile)-->
                <code>
                    <text value="Electrolytes and Creatinine Profile"/>
                </code>
                <subject>
                    <reference value="urn:uuid:8d6c2cd5-0eec-496a-88d0-3785a135df09"/>
                    <display value="STANNER, Lisa"/>
                </subject>
                <performer>
                    <reference value="urn:uuid:d6407de7-0e86-45eb-93cb-035094aaa49e"/>
                    <display value="Midtown District Hospital"/>
                </performer>
                <specimen>
                    <reference value="urn:uuid:756a8361-79ce-4561-afcb-a91fe19df123"/>
                </specimen>
<!--Component of Test Battery 1--> 
                <related>
                    <type value="has-member"/>
                    <target>
                        <reference value="urn:uuid:dacb177a-9501-4dcc-8b22-b941791ae0db"/>
                    </target>
                </related>
                <related>
                    <type value="has-member"/>
                    <target>
                        <reference value="urn:uuid:32685afe-1d46-4d98-8279-39b9e96ee914"/>
                    </target>
                </related>
                <related>
                    <type value="has-member"/>
                    <target>
                        <reference value="urn:uuid:770b982d-be09-4744-a5d7-54e757947ffe"/>
                    </target>
                </related>
                <related>
                    <type value="has-member"/>
                    <target>
                        <reference value="urn:uuid:0a8aba3d-6b29-4dba-9c64-3a47516cc5eb"/>
                    </target>
                </related>
                <related>
                    <type value="has-member"/>
                    <target>
                        <reference value="urn:uuid:ddc43c3a-2863-4d6f-a926-162f5a4174b1"/>
                    </target>
                </related>
            </Observation>
        </resource>
    </entry>
    
<!--Results in Battery-->    
    <entry>
    <fullUrl value="urn:uuid:dacb177a-9501-4dcc-8b22-b941791ae0db"/>
        <resource>
            <Observation>
                <id value="dacb177a-9501-4dcc-8b22-b941791ae0db"/>
                <meta>
                    <profile value="https://fhir.hl7.org.uk/STU3/StructureDefinition/CareConnect-Observation-1"/>
                </meta>
                <identifier>
                    <system value="https://example.local.pathology.identifier/Observation"/>
                    <value value="2af46949-4938-4c57-bad4-c4363e1965d5"/>
                </identifier>
                <status value="final"/>
                <category>
                    <coding>
                        <system value="http://snomed.info/sct"/>
                        <code value="394595002 "/>
                        <display value="Pathology (qualifier value)"/>
                    </coding>
                </category>
                <code>
                    <coding>
                        <system value="http://snomed.info/sct"/>
                        <code value="1020681000000107"/>
                        <display value="Sodium level (observable entity)"/>
                    </coding>
                </code>
                <performer>
                    <reference value="urn:uuid:d6407de7-0e86-45eb-93cb-035094aaa49e"/>
                    <display value="Midtown District Hospital"/>
                </performer>
                <valueQuantity>
                    <value value="142"/>
                    <system value="http://unitsofmeasure.org"/>
                    <code value="mmol/L"/>
                </valueQuantity>
                <specimen>
                    <reference value="urn:uuid:756a8361-79ce-4561-afcb-a91fe19df123"/>
                </specimen>
                <referenceRange>
                    <low>
                        <value value="133"/>
                    </low>
                    <high>
                        <value value="146"/>
                    </high>
                </referenceRange>
            </Observation>
        </resource>
    </entry>
    <!--Results in Battery-->    
    <entry>
    <fullUrl value="urn:uuid:32685afe-1d46-4d98-8279-39b9e96ee914"/>
        <resource>
            <Observation>
                <id value="32685afe-1d46-4d98-8279-39b9e96ee914"/>
                <meta>
                    <profile value="https://fhir.hl7.org.uk/STU3/StructureDefinition/CareConnect-Observation-1"/>
                </meta>
                <identifier>
                    <system value="https://example.local.pathology.identifier/Observation"/>
                    <value value="2af46949-4938-4c57-bad4-c4363e1965d5"/>
                </identifier>
                <status value="final"/>
                <category>
                    <coding>
                        <system value="http://snomed.info/sct"/>
                        <code value="394595002 "/>
                        <display value="Pathology (qualifier value)"/>
                    </coding>
                </category>
                <!--What is being tested-->
                <code>
                    <coding>
                        <system value="http://snomed.info/sct"/>
                        <code value="1028441000000104 "/>
                        <display value="Potassium level (observable entity)"/>
                    </coding>
                </code>
                <performer>
                    <reference value="urn:uuid:d6407de7-0e86-45eb-93cb-035094aaa49e"/>
                    <display value="Midtown District Hospital"/>
                </performer>
                <valueQuantity>
                    <value value="4.8"/>
                    <system value="http://unitsofmeasure.org"/>
                    <code value="mmol/L"/>
                </valueQuantity>
                <specimen>
                    <reference value="urn:uuid:756a8361-79ce-4561-afcb-a91fe19df123"/>
                </specimen>
                <referenceRange>
                    <low>
                        <value value="3.5"/>
                    </low>
                    <high>
                        <value value="5.3"/>
                    </high>
                </referenceRange>
            </Observation>
        </resource>
    </entry>
        <!--Results in Battery-->    
    <entry>
    <fullUrl value="urn:uuid:770b982d-be09-4744-a5d7-54e757947ffe"/>
        <resource>
            <Observation>
                <id value="770b982d-be09-4744-a5d7-54e757947ffe"/>
                <meta>
                    <profile value="https://fhir.hl7.org.uk/STU3/StructureDefinition/CareConnect-Observation-1"/>
                </meta>
                <identifier>
                    <system value="https://example.local.pathology.identifier/Observation"/>
                    <value value="2af46949-4938-4c57-bad4-c4363e1965d5"/>
                </identifier>
                <status value="final"/>
                <category>
                    <coding>
                        <system value="http://snomed.info/sct"/>
                        <code value="394595002 "/>
                        <display value="Pathology (qualifier value)"/>
                    </coding>
                </category>
                <!--What is being tested-->
                <code>
                    <coding>
                        <system value="http://snomed.info/sct"/>
                        <code value="1012691000000104"/>
                        <display value="Blood chloride level (observable entity)"/>
                    </coding>
                </code>
                <performer>
                    <reference value="urn:uuid:d6407de7-0e86-45eb-93cb-035094aaa49e"/>
                    <display value="Midtown District Hospital"/>
                </performer>
                <valueQuantity>
                    <value value="105"/>
                    <system value="http://unitsofmeasure.org"/>
                    <code value="mmol/L"/>
                </valueQuantity>
                <specimen>
                    <reference value="urn:uuid:756a8361-79ce-4561-afcb-a91fe19df123"/>
                </specimen>
                <referenceRange>
                    <low>
                        <value value="95"/>
                    </low>
                    <high>
                        <value value="108"/>
                    </high>
                </referenceRange>
            </Observation>
        </resource>
    </entry>
            <!--Results in Battery-->    
    <entry>
    <fullUrl value="urn:uuid:0a8aba3d-6b29-4dba-9c64-3a47516cc5eb"/>
        <resource>
            <Observation>
                <id value="0a8aba3d-6b29-4dba-9c64-3a47516cc5eb"/>
                <meta>
                    <profile value="https://fhir.hl7.org.uk/STU3/StructureDefinition/CareConnect-Observation-1"/>
                </meta>
                <identifier>
                    <system value="https://example.local.pathology.identifier/Observation"/>
                    <value value="2af46949-4938-4c57-bad4-c4363e1965d5"/>
                </identifier>
                <status value="final"/>
                <category>
                    <coding>
                        <system value="http://snomed.info/sct"/>
                        <code value="394595002 "/>
                        <display value="Pathology (qualifier value)"/>
                    </coding>
                </category>
                <!--What is being tested-->
                <code>
                    <coding>
                        <system value="http://snomed.info/sct"/>
                        <code value="1032061000000108"/>
                        <display value=" Creatinine level (observable entity)"/>
                    </coding>
                </code>
                <performer>
                    <reference value="urn:uuid:d6407de7-0e86-45eb-93cb-035094aaa49e"/>
                    <display value="Midtown District Hospital"/>
                </performer>
                <valueQuantity>
                    <value value="64"/>
                    <system value="http://unitsofmeasure.org"/>
                    <code value="mmol/L"/>
                </valueQuantity>
                <specimen>
                    <reference value="urn:uuid:756a8361-79ce-4561-afcb-a91fe19df123"/>
                </specimen>
                <referenceRange>
                    <low>
                        <value value="48"/>
                    </low>
                    <high>
                        <value value="128"/>
                    </high>
                </referenceRange>
            </Observation>
        </resource>
    </entry>
    <!--Results in Battery-->    
    <entry>
    <fullUrl value="urn:uuid:ddc43c3a-2863-4d6f-a926-162f5a4174b1"/>
        <resource>
            <Observation>
                <id value="ddc43c3a-2863-4d6f-a926-162f5a4174b1"/>
                <meta>
                    <profile value="https://fhir.hl7.org.uk/STU3/StructureDefinition/CareConnect-Observation-1"/>
                </meta>
                <identifier>
                    <system value="https://example.local.pathology.identifier/Observation"/>
                    <value value="2af46949-4938-4c57-bad4-c4363e1965d5"/>
                </identifier>
                <status value="final"/>
                <category>
                    <coding>
                        <system value="http://snomed.info/sct"/>
                        <code value="394595002 "/>
                        <display value="Pathology (qualifier value)"/>
                    </coding>
                </category>
                <code>
                    <coding>
                        <system value="http://snomed.info/sct"/>
                        <code value="1011481000000105"/>
                        <display value="Estimated glomerular filtration rate using creatinine Chronic Kidney Disease Epidemiology Collaboration equation per 1.73 square metres (observable entity)"/>
                    </coding>
                </code>
                <performer>
                    <reference value="urn:uuid:d6407de7-0e86-45eb-93cb-035094aaa49e"/>
                    <display value="Midtown District Hospital"/>
                </performer>
                <valueQuantity>
                    <extension url="https://fhir.hl7.org.uk/STU3/StructureDefinition/Extension-CareConnect-ValueApproximation-1">
                        <valueBoolean value="true"/>
                    </extension>
                    <value value="87"/>
                    <system value="http://unitsofmeasure.org"/>
                    <code value="mL/min/{1.73_m2}"/>
                </valueQuantity>
                <comment value="The EGFR quoted above must be multiplied by 1.2 if the patient is of Afro-Caribbean origin."/>
                <specimen>
                    <reference value="urn:uuid:756a8361-79ce-4561-afcb-a91fe19df123"/>
                </specimen>
            </Observation>
        </resource>
    </entry>
</Bundle>
