<?xml version="1.0" encoding="UTF-8"?>
<Bundle xmlns="http://hl7.org/fhir">
    <id value="13841906-097a-4a47-965a-9508fcc259d5"/>
    <meta>
        <lastUpdated value="2019-04-02T19:30:00+00:00"/>
        <profile value="https://fhir.nhs.uk/STU3/StructureDefinition/ITK-Message-Bundle-1"/>
    </meta>
    <identifier>
        <system value="https://example.local.pathology.identifier/PathologyMessage"/>
        <value value="f36927ef-7703-45ed-b0e5-6ec6723cf0f6"/>
    </identifier>
    <type value="message"/>
    <entry>
        <fullUrl value="urn:uuid:a4409d7c-b613-477c-b623-87e60406c2f0"/>
        <resource>
            <MessageHeader>
                <id value="a4409d7c-b613-477c-b623-87e60406c2f0"/>
                <meta>
                    <profile value="https://fhir.nhs.uk/STU3/StructureDefinition/ITK-MessageHeader-2"/>
                </meta>
                <extension url="https://fhir.nhs.uk/STU3/StructureDefinition/Extension-ITK-MessageHandling-2">
                    <!--The value of this handling specification is dependant on the response pattern.-->
                    <extension url="BusAckRequested">
                        <valueBoolean value="true"/>
                    </extension>
                    <extension url="InfAckRequested">
                        <valueBoolean value="true"/>
                    </extension>
                    <extension url="RecipientType">
                        <valueCoding>
                            <system value="https://fhir.nhs.uk/STU3/CodeSystem/ITK-RecipientType-1"/>
                            <code value="FA"/>
                            <display value="For Action"/>
                        </valueCoding>
                    </extension>
                </extension>
                <extension url="SenderReference">
                    <valueString value="None"/>
                </extension>
                <extension url="LocalExtension">
                    <valueString value="None"/>
                </extension>
                <event>
                    <system value="https://fhir.nhs.uk/STU3/CodeSystem/ITK-MessageEvent-2"/>
                    <code value="ITK012M"/>
                    <display value="ITK National Pathology"/>
                </event>
                <receiver>
                    <reference value="urn:uuid:bf7a76d3-5b44-4194-a9e0-d1cc1ea5e50e"/>
                </receiver>
                <sender>
                    <reference value="urn:uuid:d6407de7-0e86-45eb-93cb-035094aaa49e"/>
                </sender>
                <timestamp value="2019-04-02T09:10:16+00:00"/>
                <source>
                    <endpoint value="NOROT003"/>
                </source>
                <focus>
                    <reference value="urn:uuid:efae5859-28df-4e7d-be91-6df56d8215e4"/>
                </focus>
            </MessageHeader>
        </resource>
    </entry>
    <!--Provider from result-->
    <entry>
        <fullUrl value="urn:uuid:d6407de7-0e86-45eb-93cb-035094aaa49e"/>
        <resource>
            <Organization>
                <id value="d6407de7-0e86-45eb-93cb-035094aaa49e"/>
                <meta>
                    <profile value="https://fhir.hl7.org.uk/STU3/StructureDefinition/CareConnect-Organization-1"/>
                </meta>
                <identifier>
                    <system value="https://fhir.nhs.uk/Id/ods-organization-code"/>
                    <value value="RGD12"/>
                </identifier>
                <name value="GREENTOWN GENERAL HOSPITAL"/>
                <address>
                    <line value="BECKETT STREET"/>
                    <city value="GREENTOWN"/>
                    <district value="WEST YORKSHIRE"/>
                    <postalCode value="LS9 7TF"/>
                </address>
            </Organization>
        </resource>
        <!--Requesting Org-->
    </entry>
    <entry>
        <fullUrl value="urn:uuid:bf7a76d3-5b44-4194-a9e0-d1cc1ea5e50e"/>
        <resource>
            <Organization>
                <id value="bf7a76d3-5b44-4194-a9e0-d1cc1ea5e50e"/>
                <meta>
                    <profile value="https://fhir.hl7.org.uk/STU3/StructureDefinition/CareConnect-Organization-1"/>
                </meta>
                <identifier>
                    <system value="https://fhir.nhs.uk/Id/ods-organization-code"/>
                    <value value="D82010"/>
                </identifier>
                <name value="HEALTH PARK GP SURGERY"/>
                <address>
                    <line value="30/32 BRIDGE STREET"/>
                    <city value="HEATH PARK"/>
                    <district value="PUDSEY"/>
                    <postalCode value="LS38 9DH"/>
                </address>
            </Organization>
        </resource>
    </entry>
    <!--Requesting Practitioner-->
    <entry>
        <fullUrl value="urn:uuid:f25e9d63-6a4e-4de6-b9dc-c912fda62b01"/>
        <resource>
            <Practitioner>
                <id value="f25e9d63-6a4e-4de6-b9dc-c912fda62b01"/>
                <meta>
                    <profile value="https://fhir.nhs.uk/STU3/StructureDefinition/CareConnect-Practitioner-1"/>
                </meta>
                <identifier>
                    <system value="https://fhir.nhs.uk/Id/sds-user-id"/>
                    <value value="G8040642"/>
                </identifier>
                <name>
                    <family value="SMITH"/>
                    <given value="John"/>
                </name>
            </Practitioner>
        </resource>
    </entry>
    <entry>
        <fullUrl value="urn:uuid:8d6c2cd5-0eec-496a-88d0-3785a135df09"/>
        <resource>
            <Patient>
                <id value="8d6c2cd5-0eec-496a-88d0-3785a135df09"/>
                <meta>
                    <profile value="https://fhir.nhs.uk/STU3/StructureDefinition/CareConnect-Patient-1"/>
                </meta>
                <identifier>
                    <extension url="https://fhir.hl7.org.uk/STU3/StructureDefinition/Extension-CareConnect-NHSNumberVerificationStatus-1">
                        <valueCodeableConcept>
                            <coding>
                                <system value="https://fhir.hl7.org.uk/STU3/CodeSystem/CareConnect-NHSNumberVerificationStatus-1"/>
                                <code value="01"/>
                                <display value="Number present and verified"/>
                            </coding>
                        </valueCodeableConcept>
                    </extension>
                    <system value="https://fhir.nhs.uk/Id/nhs-number"/>
                    <value value="9432003812"/>
                </identifier>
                <name>
                    <use value="official"/>
                    <family value="REARDON"/>
                    <given value="John"/>
                </name>
                <gender value="female"/>
                <birthDate value="1974-12-29"/>
            </Patient>
        </resource>
    </entry>
    <entry>
        <fullUrl value="urn:uuid:d9df1431-22ac-462a-946a-f195f6c639af"/>
        <resource>
            <ProcedureRequest>
                <id value="d9df1431-22ac-462a-946a-f195f6c639af"/>
                <meta>
                    <profile value="https://fhir.nhs.uk/STU3/StructureDefinition/CareConnect-ProcedureRequest-1"/>
                </meta>
                <identifier>
                    <system value="https://example.local.pathology.identifier/ProcedureReport"/>
                    <value value="7e9bbd01-4e52-420d-b05b-48bc671d6708"/>
                </identifier>
                <status value="active"/>
                <intent value="order"/>
                <code>
                    <coding>
                        <system value="http://snomed.info/sct"/>
                        <code value="26604007"/>
                        <display value="FBC - Full blood count"/>
                    </coding>
                </code>
                <subject>
                    <reference value="urn:uuid:8d6c2cd5-0eec-496a-88d0-3785a135df09"/>
                    <display value="REARDON, John"/>
                </subject>
                <requester>
                    <agent>
                        <reference value="urn:uuid:f25e9d63-6a4e-4de6-b9dc-c912fda62b01"/>
                        <display value="SMITH"/>
                    </agent>
                </requester>
                <performer>
                    <reference value="urn:uuid:d6407de7-0e86-45eb-93cb-035094aaa49e"/>
                    <display value="GREENTOWN GENERAL HOSPITAL"/>
                </performer>
                <note>
                    <text value="FBC"/>
                </note>
            </ProcedureRequest>
        </resource>
    </entry>
    <entry>
        <fullUrl value="urn:uuid:efae5859-28df-4e7d-be91-6df56d8215e4"/>
        <resource>
            <DiagnosticReport xmlns="http://hl7.org/fhir">
                <id value="efae5859-28df-4e7d-be91-6df56d8215e4"/>
                <meta>
                    <profile value="https://fhir.nhs.uk/STU3/StructureDefinition/CareConnect-DiagnosticReport-1"/>
                </meta>
                <!--Test Request Summary-->
                <basedOn>
                    <reference value="urn:uuid:d9df1431-22ac-462a-946a-f195f6c639af"/>
                </basedOn>
                <status value="final"/>
                <code>
                    <coding>
                        <system value="http://snomed.info/sct"/>
                        <code value="721981007"/>
                        <display value="Diagnostic studies report"/>
                    </coding>
                </code>
                <subject>
                    <reference value="urn:uuid:8d6c2cd5-0eec-496a-88d0-3785a135df09"/>
                    <display value="REARDON, John"/>
                </subject>
                <issued value="2019-04-03T12:00:00+00:00"/>
                <performer>
                    <actor>
                        <reference value="urn:uuid:d6407de7-0e86-45eb-93cb-035094aaa49e"/>
                        <display value="GREENTOWN GENERAL HOSPITAL"/>
                    </actor>
                </performer>
<!--Blood Specimen-->
                <specimen>
                    <reference value="urn:uuid:756a8361-79ce-4561-afcb-a91fe19df123"/>
                </specimen>
                <result>
                    <reference value="urn:uuid:dacb177a-9501-4dcc-8b22-b941791ae0db"/>
                </result>
            </DiagnosticReport>
        </resource>
    </entry>
<!--Bloods-->
    <entry>
        <fullUrl value="urn:uuid:756a8361-79ce-4561-afcb-a91fe19df123"/>
        <resource>
            <Specimen>
                <id value="756a8361-79ce-4561-afcb-a91fe19df123"/>
                <meta>
                    <profile value="https://fhir.nhs.uk/STU3/StructureDefinition/CareConnect-Specimen-1"/>
                </meta>
                <identifier>
                    <system value="https://example.local.pathology.identifier/Specimen"/>
                    <value value="1b663fc5-9dec-49c0-9eed-18a7cfa5a6b2"/>
                </identifier>
                <status value="available"/>
                <type>
                    <coding>
                        <system value="http://snomed.info/sct"/>
                        <code value="122555007"/>
                        <display value="Venous blood specimen (specimen)"/>
                    </coding>
                </type>
                <subject>
                    <reference value="urn:uuid:8d6c2cd5-0eec-496a-88d0-3785a135df09"/>
                    <display value="REARDON, John"/>
                </subject>
                <receivedTime value="2017-11-01T15:00:00+00:00"/>
                <collection>
                    <collectedDateTime value="2019-04-01T11:00:00+00:00"/>
                </collection>
            </Specimen>
        </resource>
    </entry>
<!--Group Test (Battery 1)-->
<entry>
    <fullUrl value="urn:uuid:dacb177a-9501-4dcc-8b22-b941791ae0db"/>
        <resource>
            <Observation>
                <id value="dacb177a-9501-4dcc-8b22-b941791ae0db"/>
                <meta>
                    <profile value="https://fhir.nhs.uk/STU3/StructureDefinition/CareConnect-Observation-1"/>
                </meta>
                <identifier>
                    <system value="https://example.local.pathology.identifier/Observation"/>
                    <value value="2af46949-4938-4c57-bad4-c4363e1965d5"/>
                </identifier>
                <status value="final"/>
                <!--Name of Group Test (Battery Test)-->
                <code>
                    <coding>
                        <system value="http://snomed.info/sct"/>
                        <code value="26604007"/>
                        <display value="FBC - Full blood count"/>
                    </coding>
                </code>
                <subject>
                    <reference value="urn:uuid:8d6c2cd5-0eec-496a-88d0-3785a135df09"/>
                    <display value="REARDON, John"/>
                </subject>
                <performer>
                    <reference value="urn:uuid:d6407de7-0e86-45eb-93cb-035094aaa49e"/>
                    <display value="GREENTOWN GENERAL HOSPITAL"/>
                </performer>
                <specimen>
                    <reference value="urn:uuid:756a8361-79ce-4561-afcb-a91fe19df123"/>
                </specimen>
<!--Component of Test Battery 1--> 
                <related>
                    <type value="has-member"/>
                    <target>
                        <reference value="urn:uuid:dacb177a-9501-4dcc-8b22-b941791ae0db"/>
                    </target>
                </related>
                <related>
                    <type value="has-member"/>
                    <target>
                        <reference value="urn:uuid:32685afe-1d46-4d98-8279-39b9e96ee914"/>
                    </target>
                </related>
                <related>
                    <type value="has-member"/>
                    <target>
                        <reference value="urn:uuid:770b982d-be09-4744-a5d7-54e757947ffe"/>
                    </target>
                </related>
                <related>
                    <type value="has-member"/>
                    <target>
                        <reference value="urn:uuid:0a8aba3d-6b29-4dba-9c64-3a47516cc5eb"/>
                    </target>
                </related>
                <related>
                    <type value="has-member"/>
                    <target>
                        <reference value="urn:uuid:ddc43c3a-2863-4d6f-a926-162f5a4174b1"/>
                    </target>
                </related>
                <related>
                    <type value="has-member"/>
                    <target>
                        <reference value="urn:uuid:9825b7cf-de29-4c07-9b84-4af04dbf8233"/>
                    </target>
                </related>
                <related>
                    <type value="has-member"/>
                    <target>
                        <reference value="urn:uuid:e732e681-3a89-4433-a37b-3767dd19d809"/>
                    </target>
                </related>
                <related>
                    <type value="has-member"/>
                    <target>
                        <reference value="urn:uuid:2a604bea-1ef4-4cb1-97a0-f2a160f12679"/>
                    </target>
                </related>
                <related>
                    <type value="has-member"/>
                    <target>
                        <reference value="urn:uuid:704b6bb2-a1c0-429b-b901-c641e70345ec"/>
                    </target>
                </related>
                <related>
                    <type value="has-member"/>
                    <target>
                        <reference value="urn:uuid:53f4132c-0168-4327-8d69-560b13f5bb4e"/>
                    </target>
                </related>
                <related>
                    <type value="has-member"/>
                    <target>
                        <reference value="urn:uuid:c9e03e92-78b8-4e8e-9785-cbd9424e9380"/>
                    </target>
                </related>
                <related>
                    <type value="has-member"/>
                    <target>
                        <reference value="urn:uuid:9c61ad77-8c17-41aa-b795-f0fcb9f983d5"/>
                    </target>
                </related>
                <related>
                    <type value="has-member"/>
                    <target>
                        <reference value="urn:uuid:f67cb109-0890-4e47-9126-86da677c7008"/>
                    </target>
                </related>
                <related>
                    <type value="has-member"/>
                    <target>
                        <reference value="urn:uuid:1f2e71db-b9aa-4e4f-9a78-87f99fefc8bf"/>
                    </target>
                </related>
                <related>
                    <type value="has-member"/>
                    <target>
                        <reference value="urn:uuid:a23b563d-765a-4032-8dd3-c03178224f35"/>
                    </target>
                </related>
                <related>
                    <type value="has-member"/>
                    <target>
                        <reference value="urn:uuid:fedb7c2d-337c-435c-9169-612349783b5a"/>
                    </target>
                </related>
                <related>
                    <type value="has-member"/>
                    <target>
                        <reference value="urn:uuid:f9070943-7460-413a-a608-e15334b6e1d9"/>
                    </target>
                </related>
                <related>
                    <type value="has-member"/>
                    <target>
                        <reference value="urn:uuid:66acb40a-e241-474a-92b5-c74f9aa6a854"/>
                    </target>
                </related>
            </Observation>
        </resource>
    </entry>
<!--Results in Battery-->    
    <entry>
    <fullUrl value="urn:uuid:dacb177a-9501-4dcc-8b22-b941791ae0db"/>
        <resource>
            <Observation>
                <id value="dacb177a-9501-4dcc-8b22-b941791ae0db"/>
                <meta>
                    <profile value="https://fhir.nhs.uk/STU3/StructureDefinition/CareConnect-Observation-1"/>
                </meta>
                <identifier>
                    <system value="https://example.local.pathology.identifier/Observation"/>
                    <value value="2af46949-4938-4c57-bad4-c4363e1965d5"/>
                </identifier>
                <status value="final"/>
                <category>
                    <coding>
                        <system value="http://snomed.info/sct"/>
                        <code value="394595002 "/>
                        <display value="Pathology (qualifier value)"/>
                    </coding>
                </category>
                <code>
                    <coding>
                        <system value="http://snomed.info/sct"/>
                        <code value="1022541000000102"/>
                        <display value="Total white cell count (observable entity)"/>
                    </coding>
                </code>
                <performer>
                    <reference value="urn:uuid:d6407de7-0e86-45eb-93cb-035094aaa49e"/>
                    <display value="GREENTOWN GENERAL HOSPITAL"/>
                </performer>
                <valueQuantity>
                    <value value="5.7"/>
                    <system value="http://unitsofmeasure.org"/>
                    <code value="10*9/L"/>
                </valueQuantity>
                <specimen>
                    <reference value="urn:uuid:756a8361-79ce-4561-afcb-a91fe19df123"/>
                </specimen>
                <referenceRange>
                    <low>
                        <value value="3.5"/>
                    </low>
                    <high>
                        <value value="11.0"/>
                    </high>
                </referenceRange>
            </Observation>
        </resource>
    </entry>
    <!--Results in Battery-->    
    <entry>
    <fullUrl value="urn:uuid:32685afe-1d46-4d98-8279-39b9e96ee914"/>
        <resource>
            <Observation>
                <id value="32685afe-1d46-4d98-8279-39b9e96ee914"/>
                <meta>
                    <profile value="https://fhir.nhs.uk/STU3/StructureDefinition/CareConnect-Observation-1"/>
                </meta>
                <identifier>
                    <system value="https://example.local.pathology.identifier/Observation"/>
                    <value value="2af46949-4938-4c57-bad4-c4363e1965d5"/>
                </identifier>
                <status value="final"/>
                <category>
                    <coding>
                        <system value="http://snomed.info/sct"/>
                        <code value="394595002 "/>
                        <display value="Pathology (qualifier value)"/>
                    </coding>
                </category>
                <!--What is being tested-->
                <code>
                    <coding>
                        <system value="http://snomed.info/sct"/>
                        <code value="1022451000000103"/>
                        <display value="Red blood cell count (observable entity)"/>
                    </coding>
                </code>
                <performer>
                    <reference value="urn:uuid:d6407de7-0e86-45eb-93cb-035094aaa49e"/>
                    <display value="GREENTOWN GENERAL HOSPITAL"/>
                </performer>
                <valueQuantity>
                    <value value="4.57"/>
                    <system value="http://unitsofmeasure.org"/>
                    <code value="10*12/L"/>
                </valueQuantity>
                <specimen>
                    <reference value="urn:uuid:756a8361-79ce-4561-afcb-a91fe19df123"/>
                </specimen>
                <referenceRange>
                    <low>
                        <value value="3.8"/>
                    </low>
                    <high>
                        <value value="5.00"/>
                    </high>
                </referenceRange>
            </Observation>
        </resource>
    </entry>
        <!--Results in Battery-->    
    <entry>
    <fullUrl value="urn:uuid:770b982d-be09-4744-a5d7-54e757947ffe"/>
        <resource>
            <Observation>
                <id value="770b982d-be09-4744-a5d7-54e757947ffe"/>
                <meta>
                    <profile value="https://fhir.nhs.uk/STU3/StructureDefinition/CareConnect-Observation-1"/>
                </meta>
                <identifier>
                    <system value="https://example.local.pathology.identifier/Observation"/>
                    <value value="2af46949-4938-4c57-bad4-c4363e1965d5"/>
                </identifier>
                <status value="final"/>
                <category>
                    <coding>
                        <system value="http://snomed.info/sct"/>
                        <code value="394595002 "/>
                        <display value="Pathology (qualifier value)"/>
                    </coding>
                </category>
                <!--What is being tested-->
                <code>
                    <coding>
                        <system value="http://snomed.info/sct"/>
                        <code value="1022431000000105"/>
                        <display value="Haemoglobin estimation (observable entity)"/>
                    </coding>
                </code>
                <performer>
                    <reference value="urn:uuid:d6407de7-0e86-45eb-93cb-035094aaa49e"/>
                    <display value="GREENTOWN GENERAL HOSPITAL"/>
                </performer>
                <valueQuantity>
                    <value value="142"/>
                    <system value="http://unitsofmeasure.org"/>
                    <code value="g/dL"/>
                </valueQuantity>
                <specimen>
                    <reference value="urn:uuid:756a8361-79ce-4561-afcb-a91fe19df123"/>
                </specimen>
                <referenceRange>
                    <low>
                        <value value="115"/>
                    </low>
                    <high>
                        <value value="150"/>
                    </high>
                </referenceRange>
            </Observation>
        </resource>
    </entry>
            <!--Results in Battery-->    
    <entry>
    <fullUrl value="urn:uuid:0a8aba3d-6b29-4dba-9c64-3a47516cc5eb"/>
        <resource>
            <Observation>
                <id value="0a8aba3d-6b29-4dba-9c64-3a47516cc5eb"/>
                <meta>
                    <profile value="https://fhir.nhs.uk/STU3/StructureDefinition/CareConnect-Observation-1"/>
                </meta>
                <identifier>
                    <system value="https://example.local.pathology.identifier/Observation"/>
                    <value value="2af46949-4938-4c57-bad4-c4363e1965d5"/>
                </identifier>
                <status value="final"/>
                <category>
                    <coding>
                        <system value="http://snomed.info/sct"/>
                        <code value="394595002 "/>
                        <display value="Pathology (qualifier value)"/>
                    </coding>
                </category>
                <!--What is being tested-->
                <code>
                    <coding>
                        <system value="http://snomed.info/sct"/>
                        <code value="1022291000000105"/>
                        <display value="Haematocrit (observable entity)"/>
                    </coding>
                </code>
                <performer>
                    <reference value="urn:uuid:d6407de7-0e86-45eb-93cb-035094aaa49e"/>
                    <display value="GREENTOWN GENERAL HOSPITAL"/>
                </performer>
                <valueQuantity>
                    <value value="0.427"/>
                    <system value="http://unitsofmeasure.org"/>
                    <code value="%"/>
                </valueQuantity>
                <specimen>
                    <reference value="urn:uuid:756a8361-79ce-4561-afcb-a91fe19df123"/>
                </specimen>
                <referenceRange>
                    <low>
                        <value value="0.36"/>
                    </low>
                    <high>
                        <value value="0.46"/>
                    </high>
                </referenceRange>
            </Observation>
        </resource>
    </entry>
    <!--Results in Battery-->    
    <entry>
    <fullUrl value="urn:uuid:ddc43c3a-2863-4d6f-a926-162f5a4174b1"/>
        <resource>
            <Observation>
                <id value="ddc43c3a-2863-4d6f-a926-162f5a4174b1"/>
                <meta>
                    <profile value="https://fhir.nhs.uk/STU3/StructureDefinition/CareConnect-Observation-1"/>
                </meta>
                <identifier>
                    <system value="https://example.local.pathology.identifier/Observation"/>
                    <value value="2af46949-4938-4c57-bad4-c4363e1965d5"/>
                </identifier>
                <status value="final"/>
    
                <category>
                    <coding>
                        <system value="http://snomed.info/sct"/>
                        <code value="394595002 "/>
                        <display value="Pathology (qualifier value)"/>
                    </coding>
                </category>
                <code>
                    <coding>
                        <system value="http://snomed.info/sct"/>
                        <code value="1022491000000106"/>
                        <display value="Mean corpuscular volume (observable entity)"/>
                    </coding>
                </code>
                <performer>
                    <reference value="urn:uuid:d6407de7-0e86-45eb-93cb-035094aaa49e"/>
                    <display value="GREENTOWN GENERAL HOSPITAL"/>
                </performer>
                <valueQuantity>
                    <value value="93.4"/>
                    <system value="http://unitsofmeasure.org"/>
                    <code value="fL"/>
                </valueQuantity>
                <specimen>
                    <reference value="urn:uuid:756a8361-79ce-4561-afcb-a91fe19df123"/>
                </specimen>
                <referenceRange>
                    <low>
                        <value value="80"/>
                    </low>
                    <high>
                        <value value="99"/>
                    </high>
                </referenceRange>
            </Observation>
        </resource>
    </entry>
        <entry>
    <fullUrl value="urn:uuid:9825b7cf-de29-4c07-9b84-4af04dbf8233"/>
        <resource>
            <Observation>
                <id value="9825b7cf-de29-4c07-9b84-4af04dbf8233"/>
                <meta>
                    <profile value="https://fhir.nhs.uk/STU3/StructureDefinition/CareConnect-Observation-1"/>
                </meta>
                <identifier>
                    <system value="https://example.local.pathology.identifier/Observation"/>
                    <value value="2af46949-4938-4c57-bad4-c4363e1965d5"/>
                </identifier>
                <status value="final"/>
                <category>
                    <coding>
                        <system value="http://snomed.info/sct"/>
                        <code value="394595002 "/>
                        <display value="Pathology (qualifier value)"/>
                    </coding>
                </category>
                <code>
                    <coding>
                        <system value="http://snomed.info/sct"/>
                        <code value="1022471000000107"/>
                        <display value="Mean corpuscular haemoglobin (observable entity)"/>
                    </coding>
                </code>
                <performer>
                    <reference value="urn:uuid:d6407de7-0e86-45eb-93cb-035094aaa49e"/>
                    <display value="GREENTOWN GENERAL HOSPITAL"/>
                </performer>
                <valueQuantity>
                    <value value="31.1"/>
                    <system value="http://unitsofmeasure.org"/>
                    <code value="pg"/>
                </valueQuantity>
                <specimen>
                    <reference value="urn:uuid:756a8361-79ce-4561-afcb-a91fe19df123"/>
                </specimen>
                <referenceRange>
                    <low>
                        <value value="27.5"/>
                    </low>
                    <high>
                        <value value="32.5"/>
                    </high>
                </referenceRange>
            </Observation>
        </resource>
    </entry>
            <entry>
    <fullUrl value="urn:uuid:e732e681-3a89-4433-a37b-3767dd19d809"/>
        <resource>
            <Observation>
                <id value="e732e681-3a89-4433-a37b-3767dd19d809"/>
                <meta>
                    <profile value="https://fhir.nhs.uk/STU3/StructureDefinition/CareConnect-Observation-1"/>
                </meta>
                <identifier>
                    <system value="https://example.local.pathology.identifier/Observation"/>
                    <value value="2af46949-4938-4c57-bad4-c4363e1965d5"/>
                </identifier>
                <status value="final"/>        
                <category>
                    <coding>
                        <system value="http://snomed.info/sct"/>
                        <code value="394595002 "/>
                        <display value="Pathology (qualifier value)"/>
                    </coding>
                </category>
                <code>
                    <coding>
                        <system value="http://snomed.info/sct"/>
                        <code value="1022481000000109"/>
                        <display value="Mean corpuscular haemoglobin concentration (observable entity)"/>
                    </coding>
                </code>
                <performer>
                    <reference value="urn:uuid:d6407de7-0e86-45eb-93cb-035094aaa49e"/>
                    <display value="GREENTOWN GENERAL HOSPITAL"/>
                </performer>
                <valueQuantity>
                    <value value="333"/>
                    <system value="http://unitsofmeasure.org"/>
                    <code value="g/dL"/>
                </valueQuantity>
                <specimen>
                    <reference value="urn:uuid:756a8361-79ce-4561-afcb-a91fe19df123"/>
                </specimen>
                <referenceRange>
                    <low>
                        <value value="310"/>
                    </low>
                    <high>
                        <value value="350"/>
                    </high>
                </referenceRange>
            </Observation>
        </resource>
    </entry>
                <entry>
    <fullUrl value="urn:uuid:2a604bea-1ef4-4cb1-97a0-f2a160f12679"/>
        <resource>
            <Observation>
                <id value="2a604bea-1ef4-4cb1-97a0-f2a160f12679"/>
                <meta>
                    <profile value="https://fhir.nhs.uk/STU3/StructureDefinition/CareConnect-Observation-1"/>
                </meta>
                <identifier>
                    <system value="https://example.local.pathology.identifier/Observation"/>
                    <value value="2af46949-4938-4c57-bad4-c4363e1965d5"/>
                </identifier>
                <status value="final"/>
                <category>
                    <coding>
                        <system value="http://snomed.info/sct"/>
                        <code value="394595002 "/>
                        <display value="Pathology (qualifier value)"/>
                    </coding>
                </category>
                <code>
                    <coding>
                        <system value="http://snomed.info/sct"/>
                        <code value="1022651000000100"/>
                        <display value="Platelet count (observable entity)"/>
                    </coding>
                </code>
                <performer>
                    <reference value="urn:uuid:d6407de7-0e86-45eb-93cb-035094aaa49e"/>
                    <display value="GREENTOWN GENERAL HOSPITAL"/>
                </performer>
                <valueQuantity>
                    <value value="206"/>
                    <system value="http://unitsofmeasure.org"/>
                    <code value="10*9/L"/>
                </valueQuantity>
                <specimen>
                    <reference value="urn:uuid:756a8361-79ce-4561-afcb-a91fe19df123"/>
                </specimen>
                <referenceRange>
                    <low>
                        <value value="140"/>
                    </low>
                    <high>
                        <value value="400"/>
                    </high>
                </referenceRange>
            </Observation>
        </resource>
    </entry>
    <entry>
    <fullUrl value="urn:uuid:704b6bb2-a1c0-429b-b901-c641e70345ec"/>
        <resource>
            <Observation>
                <id value="704b6bb2-a1c0-429b-b901-c641e70345ec"/>
                <meta>
                    <profile value="https://fhir.nhs.uk/STU3/StructureDefinition/CareConnect-Observation-1"/>
                </meta>
                <identifier>
                    <system value="https://example.local.pathology.identifier/Observation"/>
                    <value value="2af46949-4938-4c57-bad4-c4363e1965d5"/>
                </identifier>
                <status value="final"/>
                <category>
                    <coding>
                        <system value="http://snomed.info/sct"/>
                        <code value="394595002 "/>
                        <display value="Pathology (qualifier value)"/>
                    </coding>
                </category>
                <code>
                    <coding>
                        <system value="http://snomed.info/sct"/>
                        <code value="1022551000000104"/>
                        <display value="Neutrophil count (observable entity)"/>
                    </coding>
                </code>
                <performer>
                    <reference value="urn:uuid:d6407de7-0e86-45eb-93cb-035094aaa49e"/>
                    <display value="GREENTOWN GENERAL HOSPITAL"/>
                </performer>
                <valueQuantity>
                    <value value="2.76"/>
                    <system value="http://unitsofmeasure.org"/>
                    <code value="10*9/L"/>
                </valueQuantity>
                <specimen>
                    <reference value="urn:uuid:756a8361-79ce-4561-afcb-a91fe19df123"/>
                </specimen>
                <referenceRange>
                    <low>
                        <value value="1.7"/>
                    </low>
                    <high>
                        <value value="8.0"/>
                    </high>
                </referenceRange>
            </Observation>
        </resource>
    </entry>
        <entry>
    <fullUrl value="urn:uuid:53f4132c-0168-4327-8d69-560b13f5bb4e"/>
        <resource>
            <Observation>
                <id value="53f4132c-0168-4327-8d69-560b13f5bb4e"/>
                <meta>
                    <profile value="https://fhir.nhs.uk/STU3/StructureDefinition/CareConnect-Observation-1"/>
                </meta>
                <identifier>
                    <system value="https://example.local.pathology.identifier/Observation"/>
                    <value value="2af46949-4938-4c57-bad4-c4363e1965d5"/>
                </identifier>
                <status value="final"/>
                <category>
                    <coding>
                        <system value="http://snomed.info/sct"/>
                        <code value="394595002 "/>
                        <display value="Pathology (qualifier value)"/>
                    </coding>
                </category>
                <code>
                    <coding>
                        <system value="http://snomed.info/sct"/>
                        <code value="1015471000000105"/>
                        <display value="Percentage neutrophils (observable entity)"/>
                    </coding>
                </code>
                <performer>
                    <reference value="urn:uuid:d6407de7-0e86-45eb-93cb-035094aaa49e"/>
                    <display value="ST JAMES'S UNIVERSITY HOSPITAL"/>
                </performer>
                <valueQuantity>
                    <value value="77.7"/>
                    <system value="http://unitsofmeasure.org"/>
                    <code value="%"/>
                </valueQuantity>
                <specimen>
                    <reference value="urn:uuid:756a8361-79ce-4561-afcb-a91fe19df123"/>
                </specimen>
            </Observation>
        </resource>
    </entry>
    <entry>
    <fullUrl value="urn:uuid:c9e03e92-78b8-4e8e-9785-cbd9424e9380"/>
        <resource>
            <Observation>
                <id value="c9e03e92-78b8-4e8e-9785-cbd9424e9380"/>
                <meta>
                    <profile value="https://fhir.nhs.uk/STU3/StructureDefinition/CareConnect-Observation-1"/>
                </meta>
                <identifier>
                    <system value="https://example.local.pathology.identifier/Observation"/>
                    <value value="2af46949-4938-4c57-bad4-c4363e1965d5"/>
                </identifier>
                <status value="final"/>
                <category>
                    <coding>
                        <system value="http://snomed.info/sct"/>
                        <code value="394595002 "/>
                        <display value="Pathology (qualifier value)"/>
                    </coding>
                </category>
                <code>
                    <coding>
                        <system value="http://snomed.info/sct"/>
                        <code value="1022581000000105"/>
                        <display value="Lymphocyte count (observable entity)"/>
                    </coding>
                </code>
                <performer>
                    <reference value="urn:uuid:d6407de7-0e86-45eb-93cb-035094aaa49e"/>
                    <display value="GREENTOWN GENERAL HOSPITAL"/>
                </performer>
                <valueQuantity>
                    <value value="2.12"/>
                    <system value="http://unitsofmeasure.org"/>
                    <code value="10*9/L"/>
                </valueQuantity>
                <specimen>
                    <reference value="urn:uuid:756a8361-79ce-4561-afcb-a91fe19df123"/>
                </specimen>
                    <referenceRange>
                    <low>
                        <value value="1.0"/>
                    </low>
                    <high>
                        <value value="4.0"/>
                    </high>
                </referenceRange>
            </Observation>
        </resource>
    </entry>
        <entry>
    <fullUrl value="urn:uuid:9c61ad77-8c17-41aa-b795-f0fcb9f983d5"/>
        <resource>
            <Observation>
                <id value="9c61ad77-8c17-41aa-b795-f0fcb9f983d5"/>
                <meta>
                    <profile value="https://fhir.nhs.uk/STU3/StructureDefinition/CareConnect-Observation-1"/>
                </meta>
                <identifier>
                    <system value="https://example.local.pathology.identifier/Observation"/>
                    <value value="2af46949-4938-4c57-bad4-c4363e1965d5"/>
                </identifier>
                <status value="final"/>
    
                <category>
                    <coding>
                        <system value="http://snomed.info/sct"/>
                        <code value="394595002 "/>
                        <display value="Pathology (qualifier value)"/>
                    </coding>
                </category>
                <code>
                    <coding>
                        <system value="http://snomed.info/sct"/>
                        <code value="1015481000000107"/>
                        <display value="Percentage lymphocytes (observable entity)"/>
                    </coding>
                </code>
                <performer>
                    <reference value="urn:uuid:d6407de7-0e86-45eb-93cb-035094aaa49e"/>
                    <display value="GREENTOWN GENERAL HOSPITAL"/>
                </performer>
                <valueQuantity>
                    <value value="14.3"/>
                    <system value="http://unitsofmeasure.org"/>
                    <code value="%"/>
                </valueQuantity>
                <specimen>
                    <reference value="urn:uuid:756a8361-79ce-4561-afcb-a91fe19df123"/>
                </specimen>
            </Observation>
        </resource>
    </entry>
        <entry>
    <fullUrl value="urn:uuid:f67cb109-0890-4e47-9126-86da677c7008"/>
        <resource>
            <Observation>
                <id value="f67cb109-0890-4e47-9126-86da677c7008"/>
                <meta>
                    <profile value="https://fhir.nhs.uk/STU3/StructureDefinition/CareConnect-Observation-1"/>
                </meta>
                <identifier>
                    <system value="https://example.local.pathology.identifier/Observation"/>
                    <value value="2af46949-4938-4c57-bad4-c4363e1965d5"/>
                </identifier>
                <status value="final"/>
    
                <category>
                    <coding>
                        <system value="http://snomed.info/sct"/>
                        <code value="394595002 "/>
                        <display value="Pathology (qualifier value)"/>
                    </coding>
                </category>
                <code>
                    <coding>
                        <system value="http://snomed.info/sct"/>
                        <code value="1022591000000107"/>
                        <display value="Monocyte count (observable entity)"/>
                    </coding>
                </code>
                <performer>
                    <reference value="urn:uuid:d6407de7-0e86-45eb-93cb-035094aaa49e"/>
                    <display value="GREENTOWN GENERAL HOSPITAL"/>
                </performer>
                <valueQuantity>
                    <value value="0.48"/>
                    <system value="http://unitsofmeasure.org"/>
                    <code value="10*9/L"/>
                </valueQuantity>
                <specimen>
                    <reference value="urn:uuid:756a8361-79ce-4561-afcb-a91fe19df123"/>
                </specimen>
                    <referenceRange>
                    <low>
                        <value value="0.2"/>
                    </low>
                    <high>
                        <value value="0.8"/>
                    </high>
                </referenceRange>
            </Observation>
        </resource>
    </entry>
        <entry>
    <fullUrl value="urn:uuid:1f2e71db-b9aa-4e4f-9a78-87f99fefc8bf"/>
        <resource>
            <Observation>
                <id value="1f2e71db-b9aa-4e4f-9a78-87f99fefc8bf"/>
                <meta>
                    <profile value="https://fhir.nhs.uk/STU3/StructureDefinition/CareConnect-Observation-1"/>
                </meta>
                <identifier>
                    <system value="https://example.local.pathology.identifier/Observation"/>
                    <value value="2af46949-4938-4c57-bad4-c4363e1965d5"/>
                </identifier>
                <status value="final"/>
    
                <category>
                    <coding>
                        <system value="http://snomed.info/sct"/>
                        <code value="394595002 "/>
                        <display value="Pathology (qualifier value)"/>
                    </coding>
                </category>
                <code>
                    <coding>
                        <system value="http://snomed.info/sct"/>
                        <code value="1015491000000109"/>
                        <display value="Percentage monocytes (observable entity)"/>
                    </coding>
                </code>
                <performer>
                    <reference value="urn:uuid:d6407de7-0e86-45eb-93cb-035094aaa49e"/>
                    <display value="GREENTOWN GENERAL HOSPITAL"/>
                </performer>
                <valueQuantity>
                    <value value="7.1"/>
                    <system value="http://unitsofmeasure.org"/>
                    <code value="%"/>
                </valueQuantity>
                <specimen>
                    <reference value="urn:uuid:756a8361-79ce-4561-afcb-a91fe19df123"/>
                </specimen>
            </Observation>
        </resource>
    </entry>
            <entry>
    <fullUrl value="urn:uuid:a23b563d-765a-4032-8dd3-c03178224f35"/>
        <resource>
            <Observation>
                <id value="a23b563d-765a-4032-8dd3-c03178224f35"/>
                <meta>
                    <profile value="https://fhir.nhs.uk/STU3/StructureDefinition/CareConnect-Observation-1"/>
                </meta>
                <identifier>
                    <system value="https://example.local.pathology.identifier/Observation"/>
                    <value value="2af46949-4938-4c57-bad4-c4363e1965d5"/>
                </identifier>
                <status value="final"/>
                <category>
                    <coding>
                        <system value="http://snomed.info/sct"/>
                        <code value="394595002 "/>
                        <display value="Pathology (qualifier value)"/>
                    </coding>
                </category>
                <code>
                    <coding>
                        <system value="http://snomed.info/sct"/>
                        <code value="1022561000000101"/>
                        <display value="Eosinophil count (observable entity)"/>
                    </coding>
                </code>
                <performer>
                    <reference value="urn:uuid:d6407de7-0e86-45eb-93cb-035094aaa49e"/>
                    <display value="GREENTOWN GENERAL HOSPITAL"/>
                </performer>
                <valueQuantity>
                    <value value="0.29"/>
                    <system value="http://unitsofmeasure.org"/>
                    <code value="10*9/L"/>
                </valueQuantity>
                <specimen>
                    <reference value="urn:uuid:756a8361-79ce-4561-afcb-a91fe19df123"/>
                </specimen>
                    <referenceRange>
                    <low>
                        <value value="0.04"/>
                    </low>
                    <high>
                        <value value="0.40"/>
                    </high>
                </referenceRange>
            </Observation>
        </resource>
    </entry>
        <entry>
    <fullUrl value="urn:uuid:fedb7c2d-337c-435c-9169-612349783b5a"/>
        <resource>
            <Observation>
                <id value="fedb7c2d-337c-435c-9169-612349783b5a"/>
                <meta>
                    <profile value="https://fhir.nhs.uk/STU3/StructureDefinition/CareConnect-Observation-1"/>
                </meta>
                <identifier>
                    <system value="https://example.local.pathology.identifier/Observation"/>
                    <value value="2af46949-4938-4c57-bad4-c4363e1965d5"/>
                </identifier>
                <status value="final"/>

                <category>
                    <coding>
                        <system value="http://snomed.info/sct"/>
                        <code value="394595002 "/>
                        <display value="Pathology (qualifier value)"/>
                    </coding>
                </category>
                <code>
                    <coding>
                        <system value="http://snomed.info/sct"/>
                        <code value="1015561000000104"/>
                        <display value="Percentage eosinophils (observable entity)"/>
                    </coding>
                </code>
                <performer>
                    <reference value="urn:uuid:d6407de7-0e86-45eb-93cb-035094aaa49e"/>
                    <display value="GREENTOWN GENERAL HOSPITAL"/>
                </performer>
                <valueQuantity>
                    <value value="0.9"/>
                    <system value="http://unitsofmeasure.org"/>
                    <code value="%"/>
                </valueQuantity>
                <specimen>
                    <reference value="urn:uuid:756a8361-79ce-4561-afcb-a91fe19df123"/>
                </specimen>
            </Observation>
        </resource>
    </entry>
                <entry>
    <fullUrl value="urn:uuid:f9070943-7460-413a-a608-e15334b6e1d9"/>
        <resource>
            <Observation>
                <id value="f9070943-7460-413a-a608-e15334b6e1d9"/>
                <meta>
                    <profile value="https://fhir.nhs.uk/STU3/StructureDefinition/CareConnect-Observation-1"/>
                </meta>
                <identifier>
                    <system value="https://example.local.pathology.identifier/Observation"/>
                    <value value="2af46949-4938-4c57-bad4-c4363e1965d5"/>
                </identifier>
                <status value="final"/>
                <category>
                    <coding>
                        <system value="http://snomed.info/sct"/>
                        <code value="394595002 "/>
                        <display value="Pathology (qualifier value)"/>
                    </coding>
                </category>
                <code>
                    <coding>
                        <system value="http://snomed.info/sct"/>
                        <code value="1022571000000108"/>
                        <display value="Basophil count (observable entity)"/>
                    </coding>
                </code>
                <performer>
                    <reference value="urn:uuid:d6407de7-0e86-45eb-93cb-035094aaa49e"/>
                    <display value="GREENTOWN GENERAL HOSPITAL"/>
                </performer>
                <valueQuantity>
                    <value value="0.06"/>
                    <system value="http://unitsofmeasure.org"/>
                    <code value="10*9/L"/>
                </valueQuantity>
                <specimen>
                    <reference value="urn:uuid:756a8361-79ce-4561-afcb-a91fe19df123"/>
                </specimen>
                    <referenceRange>
                    <low>
                        <value value="0.02"/>
                    </low>
                    <high>
                        <value value="0.10"/>
                    </high>
                </referenceRange>
            </Observation>
        </resource>
    </entry>
        <entry>
    <fullUrl value="urn:uuid:66acb40a-e241-474a-92b5-c74f9aa6a854"/>
        <resource>
            <Observation>
                <id value="66acb40a-e241-474a-92b5-c74f9aa6a854"/>
                <meta>
                    <profile value="https://fhir.nhs.uk/STU3/StructureDefinition/CareConnect-Observation-1"/>
                </meta>
                <identifier>
                    <system value="https://example.local.pathology.identifier/Observation"/>
                    <value value="2af46949-4938-4c57-bad4-c4363e1965d5"/>
                </identifier>
                <status value="final"/>
                <category>
                    <coding>
                        <system value="http://snomed.info/sct"/>
                        <code value="394595002 "/>
                        <display value="Pathology (qualifier value)"/>
                    </coding>
                </category>
                <code>
                    <coding>
                        <system value="http://snomed.info/sct"/>
                        <code value="1015501000000103"/>
                        <display value="Percentage basophils (observable entity)"/>
                    </coding>
                </code>
                <performer>
                    <reference value="urn:uuid:d6407de7-0e86-45eb-93cb-035094aaa49e"/>
                    <display value="GREENTOWN GENERAL HOSPITAL"/>
                </performer>
                <valueQuantity>
                    <value value="0.0"/>
                    <system value="http://unitsofmeasure.org"/>
                    <code value="%"/>
                </valueQuantity>
                <specimen>
                    <reference value="urn:uuid:756a8361-79ce-4561-afcb-a91fe19df123"/>
                </specimen>
            </Observation>
        </resource>
    </entry>
</Bundle>